Folder: VTH

File: 1.5UC-SRO-BTO-SRO-NSTO(3rd_sample_new)-1MKOH_GraphiteCE_SCE_REF_CV_upvsdown_04_CV_C01.mpt
EC-Lab ASCII FILE
Nb header lines : 59

Cyclic Voltammetry

Run on channel : 1 (SN 2826)
User :
Electrode connection : standard
Potential control : Ewe
Ewe ctrl range : min = -10.00 V, max = 10.00 V
Ewe,I filtering : 50 kHz
Safety Limits :
	Do not start on E overload
Channel : Grounded
Acquisition started on : 01/01/2023 19:45:55.008
Loaded Setting File :  NONE
Saved on :
	File : 1.5UC-SRO-BTO-SRO-NSTO(3rd_sample_new)-1MKOH_GraphiteCE_SCE_REF_CV_upvsdown_04_CV_C01.mpr
	Directory : C:\Data\Pedram\01012023\
	Host : 192.109.209.127
Device : VSP-300 (SN 0229)
Address : 192.109.209.128
EC-LAB for windows v11.42 (software)
Internet server v11.40 (firmware)
Command interpretor v11.42 (firmware)
Electrode material :
Initial state :
Electrolyte :
Comments :
Cable : standard
Electrode surface area : 0.001 cm²
Characteristic mass : 0.001 g
Equivalent Weight : 0.000 g/eq.
Density : 0.000 g/cm3
Volume (V) : 0.001 cm³
Cycle Definition : Charge/Discharge alternance
Ei (V)              -0.800
vs.                 Ref
dE/dt               50.000
dE/dt unit          mV/s
E1 (V)              -0.600
vs.                 Ref
Step percent        50
N                   10
E range min (V)     -10.000
E range max (V)     10.000
I Range             Auto
I Range min         Unset
I Range max         Unset
I Range init        Unset
Bandwidth           8
E2 (V)              -1.370
vs.                 Ref
nc cycles           10
Reverse Scan        0
Ef (V)              0.000
vs.                 Eoc

mode	ox/red	error	control changes	counter inc.	time/s	control/V	Ewe/V	<I>/mA	cycle number	(Q-Qo)/C	I Range	Rcmp/Ohm	step time/s	Pwe/W	Rwe/Ohm
2	1	0	1	0	18.5122	-0.795659	-0.795447	0.0153533	1	0.0000000E+000	40	19.5487	0.000000000000000E+000	-1.22127e-05	51809.6
2	1	0	1	0	21.4146	-0.650537	-0.650311	0.000309032	1	1.43917e-06	42	19.5487	1.8992	-2.00967e-07	2.10435e+06
2	0	0	1	0	24.1664	-0.687232	-0.687126	-0.00109819	1	5.034e-07	42	19.5487	1.7	7.54597e-07	625687
2	0	0	1	0	27.0904	-0.833432	-0.833336	-0.002348	1	-5.09869e-06	42	19.5487	4.624	1.95667e-06	354913
2	0	0	1	0	30.0416	-0.980992	-0.980784	-0.00523319	1	-1.6457e-05	41	19.5487	7.5752	5.13263e-06	187416
2	0	0	1	0	32.9656	-1.12719	-1.12699	-0.0102935	1	-4.02309e-05	41	19.5487	10.4992	1.16007e-05	109486
2	0	0	1	0	35.8896	-1.27339	-1.27323	-0.0161604	1	-7.99728e-05	41	19.5487	13.4232	2.05759e-05	78787.1
2	0	0	1	1	38.6788	-1.32715	-1.32697	-0.0120741	1	-0.000128662	41	19.5487	16.2124	1.6022e-05	109902
2	0	0	1	1	41.6028	-1.18095	-1.1808	-0.00303561	1	-0.000147117	41	19.5487	19.1364	3.58444e-06	388982
2	1	0	1	1	44.5268	-1.03475	-1.03459	0.000185838	1	-0.000149361	41	19.5487	0.68	-1.92267e-07	5.56717e+06
2	1	0	1	1	47.4508	-0.888549	-0.888368	0.00140488	1	-0.000145884	41	19.5487	3.604	-1.24805e-06	632344
2	1	0	1	1	50.2864	-0.746769	-0.746619	0.00164145	2	-0.000140765	41	19.5487	6.4396	-1.22553e-06	454854
2	1	0	1	1	53.2138	-0.600399	-0.600163	0.00166086	2	-0.000135308	42	19.5487	9.367	-9.96788e-07	361357
2	0	0	1	1	56.0472	-0.741462	-0.741355	-0.000731643	2	-0.000136145	42	19.5487	2.04	5.42407e-07	1.01327e+06
2	0	0	1	1	58.9712	-0.887662	-0.887528	-0.00191042	2	-0.000140673	42	19.5487	4.964	1.69555e-06	464572
2	0	0	1	1	61.9292	-1.03556	-1.0354	-0.0040626	2	-0.000150208	41	19.5487	7.922	4.20643e-06	254862
2	0	0	1	1	64.8532	-1.18176	-1.18157	-0.00768106	2	-0.00016779	41	19.5487	10.846	9.07573e-06	153829
2	0	0	1	1	67.7772	-1.32796	-1.32778	-0.0138668	2	-0.00020026	41	19.5487	13.77	1.84121e-05	95751.9
2	0	0	0	0	70.6262	-1.26942	-1.26925	-0.00496099	2	-0.000229923	41	19.5487	16.619	6.29675e-06	255847
2	0	0	0	0	73.5502	-1.12322	-1.12303	-0.000166907	2	-0.000234968	41	19.5487	0.204	1.87441e-07	6.72847e+06
2	1	0	0	0	76.4742	-0.977019	-0.97681	0.00142072	2	-0.000231684	41	19.5487	3.128	-1.38778e-06	687545
2	1	0	0	0	79.3982	-0.830819	-0.830632	0.00188244	2	-0.000225851	41	19.5487	6.052	-1.56361e-06	441254
2	1	0	0	0	82.2338	-0.689039	-0.688869	0.00184506	3	-0.000219826	41	19.5487	8.8876	-1.271e-06	373359
2	1	0	0	0	85.0706	-0.653062	-0.65292	0.000121733	3	-0.000215824	42	19.5487	0.068	-7.94819e-08	5.36354e+06
2	0	0	0	0	87.9946	-0.799262	-0.799124	-0.00100956	3	-0.000217882	42	19.5487	2.992	8.06765e-07	791556
2	0	0	0	0	90.9186	-0.945462	-0.945325	-0.00226405	3	-0.000223359	42	19.5487	5.916	2.14026e-06	417537
2	0	0	1	0	93.8697	-1.09302	-1.09286	-0.004451	3	-0.000234113	41	19.5487	8.8671	4.8643e-06	245531
2	0	0	1	0	96.7936	-1.23921	-1.23906	-0.00885153	3	-0.000254003	41	19.5487	11.791	1.09676e-05	139983
2	0	0	1	1	99.6492	-1.35783	-1.35766	-0.011428	3	-0.000288703	41	19.5487	14.6466	1.55153e-05	118801
2	0	0	1	1	102.573	-1.21163	-1.21145	-0.00168417	3	-0.000302783	41	19.5487	17.5706	2.0403e-06	719317
2	1	0	1	1	105.497	-1.06543	-1.06525	0.0011118	3	-0.000301672	41	19.5487	1.972	-1.18435e-06	958133
2	1	0	0	1	108.421	-0.919239	-0.919074	0.00192635	3	-0.000296107	41	19.5487	4.8958	-1.77046e-06	477105
2	1	0	0	1	111.257	-0.777459	-0.77728	0.00199066	4	-0.000289717	41	19.5487	7.7314	-1.5473e-06	390464
2	1	0	0	1	114.181	-0.631259	-0.631077	0.00186278	4	-0.000283368	41	19.5487	10.6554	-1.17556e-06	338782
2	0	0	0	1	117.051	-0.712562	-0.712431	-0.000340754	4	-0.000282054	42	19.5487	1.19	2.42763e-07	2.09075e+06
2	0	0	0	1	119.975	-0.858762	-0.858661	-0.00133946	4	-0.000285245	42	19.5487	4.114	1.15014e-06	641049
2	0	0	0	1	122.927	-1.00632	-1.00614	-0.00284737	4	-0.000292185	41	19.5487	7.0652	2.86485e-06	353357
2	0	0	0	1	125.85	-1.1525	-1.15235	-0.00544666	4	-0.000304812	41	19.5487	9.9888	6.27643e-06	211569
2	0	0	0	1	128.774	-1.2987	-1.29852	-0.0106397	4	-0.000329005	41	19.5487	12.9128	1.38158e-05	122045
2	0	0	1	0	131.596	-1.30004	-1.29985	-0.00498344	4	-0.000357708	41	19.5487	15.7342	6.47773e-06	260834
2	1	0	1	0	134.52	-1.15384	-1.15368	0.000254883	4	-0.000361928	41	19.5487	0.544	-2.94053e-07	4.5263e+06
2	1	0	1	0	137.444	-1.00764	-1.00745	0.00176235	4	-0.000357379	41	19.5487	3.468	-1.77548e-06	571650
2	1	0	1	0	140.368	-0.861439	-0.861258	0.00211566	4	-0.000350669	41	19.5487	6.392	-1.82213e-06	407086
2	1	0	1	0	143.203	-0.719659	-0.719471	0.00201769	5	-0.000344077	41	19.5487	9.2276	-1.45167e-06	356581
2	1	0	1	0	146.04	-0.622462	-0.622292	0.000632911	5	-0.00033856	42	19.5487	12.0644	-3.93855e-07	983222
2	0	0	1	0	148.964	-0.768662	-0.768547	-0.000693903	5	-0.000339637	42	19.5487	2.312	5.33296e-07	1.10757e+06
2	0	0	1	0	151.888	-0.914862	-0.914764	-0.00174803	5	-0.000343912	42	19.5487	5.236	1.59904e-06	523311
2	0	0	1	0	154.839	-1.06242	-1.06223	-0.00338287	5	-0.000352291	41	19.5487	8.1872	3.5934e-06	314004
2	0	0	1	0	157.763	-1.20862	-1.20844	-0.00669065	5	-0.0003675	41	19.5487	11.1112	8.08526e-06	180616
2	0	0	1	0	160.687	-1.35482	-1.35463	-0.0126092	5	-0.000396678	41	19.5487	14.0352	1.70809e-05	107432
2	0	0	0	1	163.542	-1.24226	-1.24208	-0.00174602	5	-0.00041347	41	19.5487	16.8902	2.16869e-06	711373
2	1	0	0	1	166.466	-1.09606	-1.09587	0.00138892	5	-0.000411804	41	19.5487	2.04	-1.52208e-06	789015
2	1	0	0	1	169.39	-0.949859	-0.949653	0.00215574	5	-0.000405419	41	19.5487	4.964	-2.04721e-06	440523
2	1	0	0	1	172.314	-0.803659	-0.803468	0.00214781	5	-0.000398247	41	19.5487	7.888	-1.7257e-06	374086
2	1	0	0	1	175.15	-0.661879	-0.661685	0.00196908	6	-0.000391706	41	19.5487	10.7236	-1.30291e-06	336037
2	1	0	1	1	177.89	-0.675452	-0.6753	-5.0454e-06	6	-0.000388622	42	19.5487	0.408	3.40716e-09	1.33845e+08
[...]
2	1	0	0	0	201.206	-0.898559	-0.898378	0.00230611	6	-0.000448354	41	19.5487	6.2556	-2.07175e-06	389565
2	1	0	0	0	204.035	-0.757119	-0.756953	0.00214296	7	-0.000441328	41	19.5487	9.0844	-1.62212e-06	353228
2	1	0	0	0	206.958	-0.610959	-0.61077	0.00193229	7	-0.000434716	41	19.5487	12.0076	-1.18018e-06	316086
2	0	0	1	0	209.802	-0.731272	-0.731118	-0.000449923	7	-0.000434309	41	19.5487	1.496	3.28947e-07	1.62498e+06
2	0	0	1	0	212.726	-0.877472	-0.877291	-0.00137774	7	-0.000437665	41	19.5487	4.42	1.20868e-06	636761
2	0	0	1	0	215.65	-1.02367	-1.02348	-0.00265544	7	-0.000444369	41	19.5487	7.344	2.71779e-06	385428
2	0	0	1	0	218.574	-1.16987	-1.16969	-0.00514292	7	-0.000456308	41	19.5487	10.268	6.01564e-06	227438
2	0	0	1	0	221.498	-1.31607	-1.31587	-0.0102258	7	-0.000479652	41	19.5487	13.192	1.34558e-05	128682
2	0	0	1	1	224.312	-1.28307	-1.28289	-0.00289228	7	-0.000502219	41	19.5487	16.006	3.71048e-06	443556
2	1	0	1	1	227.236	-1.13687	-1.1367	0.0012788	7	-0.000502045	41	19.5487	1.564	-1.4536e-06	888879
2	1	0	1	1	230.16	-0.990669	-0.990498	0.00222013	7	-0.000495487	41	19.5487	4.488	-2.19903e-06	446145
2	1	0	1	1	233.084	-0.844469	-0.844296	0.00229965	7	-0.00048792	41	19.5487	7.412	-1.94159e-06	367140
2	1	0	1	1	235.919	-0.702689	-0.702512	0.00208064	8	-0.000481011	41	19.5487	10.2476	-1.46167e-06	337643
2	1	0	1	1	238.694	-0.636362	-0.636148	0.000441771	8	-0.000475979	41	19.5487	13.0224	-2.81032e-07	1.44e+06
2	0	0	1	1	241.618	-0.782562	-0.782378	-0.000760286	8	-0.00047732	41	19.5487	2.516	5.94831e-07	1.02906e+06
2	0	0	1	1	244.542	-0.928762	-0.92859	-0.00175582	8	-0.000481685	41	19.5487	5.44	1.63044e-06	528864
2	0	0	1	1	247.466	-1.07496	-1.07479	-0.00318668	8	-0.000489708	41	19.5487	8.364	3.42501e-06	337276
2	0	0	1	1	250.39	-1.22116	-1.22098	-0.00648777	8	-0.000504382	41	19.5487	11.288	7.92142e-06	188197
2	0	0	1	1	253.314	-1.36736	-1.3672	-0.0123665	8	-0.000533111	41	19.5487	14.212	1.69075e-05	110556
2	0	0	1	0	256.128	-1.23175	-1.23155	-0.000706209	8	-0.000544464	41	19.5487	17.0256	8.69734e-07	1.7439e+06
2	1	0	1	0	259.052	-1.08555	-1.08537	0.0018593	8	-0.000540613	41	19.5487	2.652	-2.01803e-06	583753
2	1	0	1	0	261.976	-0.939349	-0.939172	0.00234193	8	-0.000533255	41	19.5487	5.576	-2.19947e-06	401026
2	1	0	1	0	264.804	-0.797909	-0.797694	0.00226926	9	-0.000525918	41	19.5487	8.4048	-1.81017e-06	351522
2	1	0	1	0	267.728	-0.651709	-0.651531	0.0020138	9	-0.000518993	41	19.5487	11.3288	-1.31205e-06	323533
2	1	0	1	0	270.594	-0.691562	-0.691424	-0.000113649	9	-0.000516335	42	19.5487	0.612	7.858e-08	6.08383e+06
2	0	0	1	0	273.518	-0.837762	-0.837634	-0.00105178	9	-0.000518836	42	19.5487	3.536	8.81011e-07	796393
2	0	0	1	0	276.476	-0.985662	-0.985478	-0.00221492	9	-0.000524454	41	19.5487	6.494	2.18276e-06	444927
2	0	0	0	0	279.4	-1.13185	-1.13167	-0.00411369	9	-0.000534301	41	19.5487	9.4178	4.65533e-06	275097
2	0	0	0	0	282.324	-1.27805	-1.27786	-0.00868128	9	-0.000553365	41	19.5487	12.3418	1.10935e-05	147197
2	0	0	1	1	285.151	-1.32048	-1.32027	-0.00485466	9	-0.00058035	41	19.5487	15.1692	6.40948e-06	271960
2	1	0	1	1	288.075	-1.17428	-1.17411	0.000861647	9	-0.00058319	41	19.5487	0.952	-1.01167e-06	1.36264e+06
2	1	0	1	1	290.999	-1.02808	-1.02792	0.00220036	9	-0.000577067	41	19.5487	3.876	-2.2618e-06	467159
2	1	0	1	1	293.923	-0.881879	-0.881693	0.00237715	9	-0.000569359	41	19.5487	6.8	-2.09592e-06	370904
2	1	0	1	1	296.759	-0.740099	-0.739942	0.00215693	10	-0.000562185	41	19.5487	9.6356	-1.59601e-06	343053
2	1	0	0	1	299.597	-0.601802	-0.601607	0.00159397	10	-0.000555738	41	19.5487	12.474	-9.58944e-07	377427
2	1	0	0	1	300.559	-0.649911	-0.649735	0.000207108	10	-0.00055527	42	19.5487	13.4362	-1.34565e-07	3.13718e+06

File: 1.5UC-SRO-BTO-SRO-NSTO(3rd_sample_new)-1MKOH_GraphiteCE_SCE_REF_CV_upvsdown_09_CV_C01 - Copy.txt
EC-Lab ASCII FILE
Nb header lines : 59

Cyclic Voltammetry

Run on channel : 1 (SN 2826)
User :
Electrode connection : standard
Potential control : Ewe
Ewe ctrl range : min = -10.00 V, max = 10.00 V
Ewe,I filtering : 50 kHz
Safety Limits :
	Do not start on E overload
Channel : Grounded
Acquisition started on : 01/01/2023 19:45:55.008
Loaded Setting File :  NONE
Saved on :
	File : 1.5UC-SRO-BTO-SRO-NSTO(3rd_sample_new)-1MKOH_GraphiteCE_SCE_REF_CV_upvsdown_09_CV_C01.mpr
	Directory : C:\Data\Pedram\01012023\
	Host : 192.109.209.127
Device : VSP-300 (SN 0229)
Address : 192.109.209.128
EC-LAB for windows v11.42 (software)
Internet server v11.40 (firmware)
Command interpretor v11.42 (firmware)
Electrode material :
Initial state :
Electrolyte :
Comments :
Cable : standard
Electrode surface area : 0.001 cm²
Characteristic mass : 0.001 g
Equivalent Weight : 0.000 g/eq.
Density : 0.000 g/cm3
Volume (V) : 0.001 cm³
Cycle Definition : Charge/Discharge alternance
Ei (V)              -0.800
vs.                 Ref
dE/dt               50.000
dE/dt unit          mV/s
E1 (V)              -0.600
vs.                 Ref
Step percent        50
N                   10
E range min (V)     -10.000
E range max (V)     10.000
I Range             Auto
I Range min         Unset
I Range max         Unset
I Range init        Unset
Bandwidth           8
E2 (V)              -1.370
vs.                 Ref
nc cycles           10
Reverse Scan        0
Ef (V)              0.000
vs.                 Eoc

mode	ox/red	error	control changes	counter inc.	time/s	control/V	Ewe/V	<I>/mA	cycle number	(Q-Qo)/C	I Range	Rcmp/Ohm	step time/s	Pwe/W	Rwe/Ohm
2	1	0	0	0	328.614	-0.795659	-0.795611	0.0216305	1	0.0000000E+000	40	23.8988	0.000000000000000E+000	-1.72094e-05	36781.9
2	1	0	0	0	331.943	-0.629229	-0.629029	0.00989797	1	3.81873e-05	41	23.8988	3.2912	-6.22611e-06	63551.3
2	1	0	1	0	335.246	-0.736212	-0.736093	0.00298201	1	5.75659e-05	42	23.8988	6.5942	-2.19504e-06	246845
2	0	0	1	0	338.578	-0.902812	-0.902691	0.000149539	1	6.13057e-05	42	23.8988	0.272	-1.34988e-07	6.03648e+06
2	0	0	1	0	341.937	-1.07077	-1.07063	-0.00221227	1	5.66522e-05	41	23.8988	3.6312	2.36852e-06	483949
2	0	0	1	0	345.269	-1.23737	-1.23719	-0.00546262	1	4.33011e-05	41	23.8988	6.9632	6.7583e-06	226483
2	0	0	0	1	348.439	-1.34417	-1.34399	-0.00504578	1	1.67187e-05	41	23.8988	10.1328	6.78148e-06	266360
2	1	0	0	1	351.771	-1.17757	-1.1774	0.00282447	1	1.91563e-05	41	23.8988	2.176	-3.32552e-06	416856
2	1	0	0	1	355.103	-1.01097	-1.01079	0.00388757	1	3.21865e-05	41	23.8988	5.508	-3.92953e-06	260007
2	1	0	0	1	358.435	-0.844369	-0.84419	0.0039931	1	4.65064e-05	41	23.8988	8.84	-3.37094e-06	211412
2	1	0	0	1	361.678	-0.682189	-0.681962	0.00398055	2	6.0275e-05	42	23.8988	12.0836	-2.71458e-06	171324
2	1	0	1	1	364.925	-0.680332	-0.680185	0.00114797	2	7.01509e-05	42	23.8988	15.3298	-7.80833e-07	592511
2	0	0	1	1	368.257	-0.846932	-0.846816	-0.000591186	2	6.99439e-05	42	23.8988	1.768	5.00626e-07	1.4324e+06
2	0	0	1	1	371.616	-1.01489	-1.01473	-0.00215596	2	6.42977e-05	41	23.8988	5.1272	2.18772e-06	470661
2	0	0	1	1	374.948	-1.18149	-1.18134	-0.00436491	2	5.25228e-05	41	23.8988	8.4592	5.15643e-06	270645
2	0	0	1	1	378.28	-1.34809	-1.34792	-0.0108222	2	2.76031e-05	41	23.8988	11.7912	1.45875e-05	124551
2	1	0	1	0	381.543	-1.22863	-1.22845	0.00120297	2	1.63351e-05	41	23.8988	0.884	-1.47778e-06	1.02118e+06
2	1	0	1	0	384.875	-1.06203	-1.06185	0.00309853	2	2.58816e-05	41	23.8988	4.216	-3.29018e-06	342694
2	1	0	1	0	388.207	-0.895429	-0.895249	0.00330917	2	3.78457e-05	41	23.8988	7.548	-2.96253e-06	270536
2	1	0	1	0	391.451	-0.733249	-0.733033	0.00318147	3	4.92539e-05	42	23.8988	10.7916	-2.33212e-06	230407
2	1	0	1	0	394.697	-0.629302	-0.629128	0.00145556	3	5.93189e-05	42	23.8988	14.0372	-9.15734e-07	432224
2	0	0	1	0	398.029	-0.795902	-0.79575	-0.000488497	3	5.95413e-05	42	23.8988	1.632	3.88722e-07	1.62897e+06
2	0	0	1	0	401.361	-0.962502	-0.962368	-0.00175672	3	5.47708e-05	42	23.8988	4.964	1.69061e-06	547820
2	0	0	1	0	404.72	-1.13046	-1.13029	-0.00363448	3	4.47481e-05	41	23.8988	8.3232	4.10803e-06	310992
2	0	0	1	0	408.052	-1.29706	-1.29686	-0.00823398	3	2.51801e-05	41	23.8988	11.6552	1.06783e-05	157501
2	0	0	0	1	411.316	-1.27962	-1.27944	-0.000899172	3	2.00463e-06	41	23.8988	14.919	1.15043e-06	1.4229e+06
2	1	0	0	1	414.648	-1.11302	-1.11285	0.00264641	3	8.17455e-06	41	23.8988	3.06	-2.94504e-06	420512
2	1	0	0	1	417.98	-0.946419	-0.946248	0.00307476	3	1.91559e-05	41	23.8988	6.392	-2.90949e-06	307747
2	1	0	0	1	421.223	-0.784239	-0.783983	0.00294315	4	2.99326e-05	42	23.8988	9.6356	-2.30738e-06	266375
2	1	0	0	1	424.555	-0.617639	-0.617396	0.00284973	4	4.0325e-05	42	23.8988	12.9676	-1.75941e-06	216651
2	0	0	1	1	427.801	-0.744892	-0.74476	-0.000215276	4	4.25232e-05	42	23.8988	0.952	1.60329e-07	3.45957e+06
2	0	0	1	1	431.133	-0.911492	-0.911384	-0.00142212	4	3.87834e-05	42	23.8988	4.284	1.2961e-06	640862
2	0	0	1	1	434.492	-1.07945	-1.07929	-0.00296985	4	3.03949e-05	41	23.8988	7.6432	3.20533e-06	363414
2	0	0	1	1	437.824	-1.24605	-1.24587	-0.00623062	4	1.47417e-05	41	23.8988	10.9752	7.76256e-06	199959
2	0	0	1	0	441.088	-1.33061	-1.33041	-0.00477131	4	-1.47083e-05	41	23.8988	14.2392	6.34783e-06	278836
2	1	0	1	0	444.42	-1.16401	-1.16383	0.00204987	4	-1.40423e-05	41	23.8988	1.972	-2.38571e-06	567758
2	1	0	1	0	447.752	-0.997409	-0.997202	0.00293643	4	-3.99219e-06	41	23.8988	5.304	-2.92822e-06	339596
2	1	0	1	0	451.111	-0.829449	-0.8292	0.0028512	4	6.91193e-06	42	23.8988	8.6632	-2.36422e-06	290825
2	1	0	1	0	454.327	-0.668629	-0.668382	0.00270139	5	1.66494e-05	42	23.8988	11.8796	-1.80556e-06	247422
2	1	0	0	0	457.573	-0.693892	-0.693744	0.000148395	5	2.17558e-05	42	23.8988	0.136	-1.02948e-07	4.67498e+06
2	0	0	0	0	460.905	-0.860492	-0.860379	-0.001095	5	1.91235e-05	42	23.8988	3.468	9.42112e-07	785737
2	0	0	0	0	464.271	-1.02879	-1.02863	-0.00250556	5	1.21171e-05	41	23.8988	6.834	2.5773e-06	410541
2	0	0	0	0	467.603	-1.19539	-1.19523	-0.00480062	5	-7.48355e-07	41	23.8988	10.166	5.73783e-06	248974
2	0	0	0	0	470.935	-1.36199	-1.36182	-0.0123778	5	-2.88036e-05	41	23.8988	13.498	1.68564e-05	110021
2	1	0	0	1	474.192	-1.21503	-1.21486	0.00108347	5	-3.84555e-05	41	23.8988	0.884	-1.31626e-06	1.12126e+06
2	1	0	0	1	477.524	-1.04843	-1.04827	0.0027668	5	-2.98364e-05	41	23.8988	4.216	-2.90034e-06	378873
2	1	0	0	1	480.873	-0.880979	-0.880741	0.00283372	5	-1.91754e-05	41	23.8988	7.565	-2.49578e-06	310807
2	1	0	0	1	484.099	-0.719649	-0.719417	0.0026712	6	-9.42295e-06	42	23.8988	10.7916	-1.9217e-06	269324
2	1	0	1	1	487.345	-0.642892	-0.642752	0.000698047	6	-1.81514e-06	42	23.8988	14.037	-4.48671e-07	920785
2	0	0	1	1	490.677	-0.809492	-0.809361	-0.000780566	6	-3.17321e-06	42	23.8988	2.584	6.3176e-07	1.03689e+06
2	0	0	1	1	494.009	-0.976092	-0.975931	-0.00190136	6	-8.8042e-06	42	23.8988	5.916	1.8556e-06	513281
2	0	0	1	1	497.368	-1.14405	-1.14387	-0.00395891	6	-1.95526e-05	41	23.8988	9.2752	4.52848e-06	288935
2	0	0	1	1	500.7	-1.31065	-1.31046	-0.0093354	6	-4.11237e-05	41	23.8988	12.6072	1.22337e-05	140375
2	0	0	0	0	503.964	-1.266	-1.26582	-0.000696462	6	-6.35983e-05	41	23.8988	15.8714	8.81597e-07	1.8175e+06
2	1	0	1	0	507.296	-1.09941	-1.09923	0.00249756	6	-5.75496e-05	41	23.8988	3.1278	-2.74539e-06	440121
2	1	0	1	0	510.628	-0.932809	-0.932602	0.00285702	6	-4.72407e-05	41	23.8988	6.4598	-2.66446e-06	326424
[...]
2	1	0	0	1	543.759	-0.815869	-0.815638	0.00268015	7	-6.64269e-05	42	23.8988	8.7312	-2.18603e-06	304325
2	1	0	0	1	546.975	-0.655049	-0.654806	0.00248182	8	-5.73515e-05	42	23.8988	11.9476	-1.62511e-06	263841
2	0	0	0	1	550.22	-0.707482	-0.707331	-0.000104962	8	-5.36747e-05	42	23.8988	0.612	7.42429e-08	6.73892e+06
2	0	0	0	1	553.552	-0.874082	-0.873936	-0.00123826	8	-5.69291e-05	42	23.8988	3.944	1.08216e-06	705778
2	0	0	0	1	556.912	-1.04204	-1.04188	-0.00258013	8	-6.43954e-05	41	23.8988	7.3032	2.68818e-06	403808
2	0	0	0	1	560.244	-1.20864	-1.20846	-0.00526763	8	-7.81131e-05	41	23.8988	10.6352	6.36571e-06	229412
2	0	0	1	0	563.508	-1.368	-1.36784	-0.0123458	8	-0.000108282	41	23.8988	13.8994	1.68871e-05	110794
2	1	0	1	0	566.84	-1.2014	-1.20121	0.0011925	8	-0.000116122	41	23.8988	1.02	-1.43244e-06	1.0073e+06
2	1	0	0	0	570.172	-1.03481	-1.03463	0.00269977	8	-0.000107571	41	23.8988	4.3518	-2.79327e-06	383230
2	1	0	0	0	573.538	-0.866509	-0.866277	0.00270572	8	-9.72107e-05	42	23.8988	7.7178	-2.34391e-06	320165
2	1	0	0	0	576.747	-0.706029	-0.705787	0.00249862	9	-8.79747e-05	42	23.8988	10.9274	-1.7635e-06	282470
2	1	0	1	0	579.993	-0.656492	-0.656296	0.000389052	9	-8.15139e-05	42	23.8988	14.1728	-2.55333e-07	1.68691e+06
2	0	0	1	0	583.325	-0.823092	-0.822931	-0.000929206	9	-8.3518e-05	42	23.8988	2.992	7.64672e-07	885628
2	0	0	1	0	586.657	-0.989692	-0.989542	-0.0020184	9	-8.95912e-05	42	23.8988	6.324	1.99729e-06	490262
2	0	0	1	0	590.016	-1.15765	-1.15748	-0.00421289	9	-0.000100978	41	23.8988	9.6832	4.87632e-06	274747
2	0	0	1	0	593.348	-1.32425	-1.32407	-0.0104835	9	-0.000124769	41	23.8988	13.0152	1.38809e-05	126300
2	0	0	0	1	596.612	-1.25242	-1.25225	-0.000447387	9	-0.000145718	41	23.8988	16.279	5.60239e-07	2.79902e+06
2	1	0	1	1	599.943	-1.08583	-1.08565	0.00251149	9	-0.000139398	41	23.8988	3.2638	-2.72661e-06	432274
2	1	0	0	1	603.275	-0.919239	-0.919051	0.00281037	9	-0.00012931	41	23.8988	6.5956	-2.58288e-06	327021
2	1	0	0	1	606.519	-0.757059	-0.756817	0.00253512	10	-0.000119758	42	23.8988	9.8392	-1.91862e-06	298533
2	1	0	0	1	609.764	-0.605482	-0.605286	0.00157967	10	-0.000111179	42	23.8988	13.0844	-9.5615e-07	383173
2	0	0	0	1	613.096	-0.772082	-0.771926	-0.000615706	10	-0.000111543	42	23.8988	2.04	4.75279e-07	1.25373e+06
2	0	0	0	1	616.428	-0.938682	-0.938539	-0.00167849	10	-0.000116391	42	23.8988	5.372	1.57533e-06	559156
2	0	0	0	1	619.787	-1.10664	-1.10646	-0.00335681	10	-0.000125854	41	23.8988	8.7312	3.71417e-06	329616
2	0	0	1	1	623.119	-1.27323	-1.27305	-0.00783224	10	-0.000144305	41	23.8988	12.063	9.97087e-06	162540
2	0	0	0	0	626.383	-1.30342	-1.30322	-0.00327853	10	-0.000174131	41	23.8988	15.3268	4.27264e-06	397502
2	1	0	1	0	629.714	-1.13685	-1.13667	0.00206479	10	-0.000171962	41	23.8988	2.2434	-2.34699e-06	550503
2	1	0	1	0	633.046	-0.970249	-0.97005	0.00276691	10	-0.000162343	41	23.8988	5.5754	-2.68404e-06	350590
2	1	0	0	0	636.405	-0.802299	-0.802035	0.00261584	10	-0.000152281	42	23.8988	8.9344	-2.098e-06	306607
2	1	0	0	0	639.622	-0.641479	-0.641227	0.00237646	11	-0.000143517	42	23.8988	12.1508	-1.52385e-06	269824
2	0	0	1	0	642.736	-0.714552	-0.714405	-0.000204219	11	-0.000140841	42	23.8988	0.884	1.45895e-07	3.49823e+06
2	0	0	1	0	646.068	-0.881152	-0.881018	-0.00131288	11	-0.000144365	42	23.8988	4.216	1.15667e-06	671057
2	0	0	1	0	649.427	-1.04911	-1.04894	-0.00271464	11	-0.000152091	41	23.8988	7.5752	2.84749e-06	386401
2	0	0	1	0	652.759	-1.21571	-1.21554	-0.00557796	11	-0.000166396	41	23.8988	10.9072	6.78021e-06	217918
2	0	0	1	0	655.842	-1.3699	-1.36977	-0.0139918	11	-0.00019609	41	23.8988	13.9898	1.91656e-05	97898.2